event_number,keyword1,keyword2,keyword3,keyword4,item,number,sad_memory_loop.thisRepN,sad_memory_loop.thisTrialN,sad_memory_loop.thisN,sad_memory_loop.thisIndex,think_content_loop.thisRepN,think_content_loop.thisTrialN,think_content_loop.thisN,think_content_loop.thisIndex,thisRow.t,notes,welcome_screen.started,text_welcome.started,key_resp_welcome.started,welcome_screen.stopped,key_resp_welcome.keys,key_resp_welcome.rt,key_resp_welcome.duration,refresh.started,text_refresh.started,refresh.stopped,wait4trigger_scanner.started,wait4trigger_text.started,wait4trigger_scanner.stopped,fake_stimulus.started,fake_stimulus_text.started,fake_stimulus.stopped,sad_memory.started,background.started,sad_memory.stopped,emotional_level.started,rate_emotion_prompt.started,slider_emotion.started,key_resp_emotion.started,emotional_level.stopped,slider_emotion.response,slider_emotion.rt,Rating,key_resp_emotion.keys,key_resp_emotion.rt,key_resp_emotion.duration,text_refresh.stopped,think_content.started,main_body_questionnaire.started,item_text.started,slider_thinking_content.started,key_resp_thinking_content.started,think_content.stopped,slider_thinking_content.response,slider_thinking_content.rt,key_resp_thinking_content.keys,key_resp_thinking_content.rt,key_resp_thinking_content.duration,goodbye.started,goodbye_text.started,key_resp_goodbye.started,goodbye.stopped,key_resp_goodbye.keys,key_resp_goodbye.rt,key_resp_goodbye.duration,participant,session,date,expName,psychopyVersion,frameRate,expStart,
,,,,,,,,,,,,,,,,,0.022830509000414168,0.038628062000498176,0.038628062000498176,3.276754272999824,a,-9889.221173716,None,,,,,,,,,,,,,,,,,,,,,,,,,,,,,,,,,,,,,,,,,,,001,001,2024-08-21_11h24.35.966,sad_memory_demo,2024.1.3,None,2024-08-21 11h24.43.950351 -0400,
,,,,,,,,,,,,,,,,,,,,,,,,3.2767762540006515,3.2865704739997454,3.5845279330005724,,,,,,,,,,,,,,,,,,,,,,,,,,,,,,,,,,,,,,,,001,001,2024-08-21_11h24.35.966,sad_memory_demo,2024.1.3,None,2024-08-21 11h24.43.950351 -0400,
,,,,,,,,,,,,,,,,,,,,,,,,,,,3.5845417920008913,3.6008737129996007,4.584886550999727,,,,,,,,,,,,,,,,,,,,,,,,,,,,,,,,,,,,,001,001,2024-08-21_11h24.35.966,sad_memory_demo,2024.1.3,None,2024-08-21 11h24.43.950351 -0400,
,,,,,,,,,,,,,,,,,,,,,,,,,,,,,,4.584900653000659,4.601417080999454,6.584619531000499,,,,,,,,,,,,,,,,,,,,,,,,,,,,,,,,,,001,001,2024-08-21_11h24.35.966,sad_memory_demo,2024.1.3,None,2024-08-21 11h24.43.950351 -0400,
4,homeless,street,shout,chase,,,0,0,0,3,,,,,6.628374707999683,,,,,,,,,,,,,,,,,,6.593201273999512,6.628374707999683,9.584595603999333,,,,,,,,,,,,,,,,,,,,,,,,,,,,,,,001,001,2024-08-21_11h24.35.966,sad_memory_demo,2024.1.3,None,2024-08-21 11h24.43.950351 -0400,
1,London,None,None,None,,,0,1,1,0,,,,,9.60765130099935,,,,,,,,,,,,,,,,,,9.584850274999553,9.60765130099935,12.584816283000691,,,,,,,,,,,,,,,,,,,,,,,,,,,,,,,001,001,2024-08-21_11h24.35.966,sad_memory_demo,2024.1.3,None,2024-08-21 11h24.43.950351 -0400,
3,scream,siren,gun,None,,,0,2,2,2,,,,,12.614134137000292,,,,,,,,,,,,,,,,,,12.58501413399972,12.614134137000292,15.585645723000198,,,,,,,,,,,,,,,,,,,,,,,,,,,,,,,001,001,2024-08-21_11h24.35.966,sad_memory_demo,2024.1.3,None,2024-08-21 11h24.43.950351 -0400,
2,door,noise,None,None,,,0,3,3,1,,,,,15.614613109000857,,,,,,,,,,,,,,,,,,15.585872413999823,15.614613109000857,18.585611788999813,,,,,,,,,,,,,,,,,,,,,,,,,,,,,,,001,001,2024-08-21_11h24.35.966,sad_memory_demo,2024.1.3,None,2024-08-21 11h24.43.950351 -0400,
,,,,,,,,,,,,,,,,,,,,,,,,18.585687590000816,18.602473531000214,18.885904643000686,,,,,,,,,,,,,,,,,,,,,,,,,,,,,,,,,,,,,,,,001,001,2024-08-21_11h24.35.966,sad_memory_demo,2024.1.3,None,2024-08-21 11h24.43.950351 -0400,
,,,,,,,,,,,,,,,,,,,,,,,,,,,,,,,,,,,,18.88591885599999,18.95177673699982,18.95177673699982,18.95177673699982,20.97861909600033,None,None,6.0,a,-9890.460887569,None,,,,,,,,,,,,,,,,,,,,001,001,2024-08-21_11h24.35.966,sad_memory_demo,2024.1.3,None,2024-08-21 11h24.43.950351 -0400,
,,,,,,,,,,,,,,,,,,,,,,,,20.978652506999424,20.986745587999394,21.278214535001098,,,,,,,,,,,,,,,,,,,,,21.347584926999843,,,,,,,,,,,,,,,,,,,001,001,2024-08-21_11h24.35.966,sad_memory_demo,2024.1.3,None,2024-08-21 11h24.43.950351 -0400,
,,,,,were about the past,1,,,,,0,0,0,0,21.347584926999843,,,,,,,,,22.211596846000248,22.219560961000752,22.5135297249999,,,,,,,,,,,,,,,,,8.0,,,,,21.28455416200086,21.347584926999843,21.347584926999843,21.347584926999843,21.347584926999843,22.2110565389994,None,None,a,-9891.630034508999,None,,,,,,,,001,001,2024-08-21_11h24.35.966,sad_memory_demo,2024.1.3,None,2024-08-21 11h24.43.950351 -0400,
,,,,,were about the future,2,,,,,0,1,1,1,22.560847853999803,,,,,,,,,23.342790714999865,23.350832349000484,23.638977028000227,,,,,,,,,,,,,,,,,3.0,,,,23.688228181999875,22.513744977999522,22.560847853999803,22.560847853999803,22.560847853999803,22.560847853999803,23.3424770620004,None,None,s,-9891.688102295999,None,,,,,,,,001,001,2024-08-21_11h24.35.966,sad_memory_demo,2024.1.3,None,2024-08-21 11h24.43.950351 -0400,
,,,,,were about myself,3,,,,,0,2,2,2,23.688228181999875,,,,,,,,,24.695272076000037,24.703144866000002,24.99720205899939,,,,,,,,,,,,,,,,,8.0,,,,,23.639148678999845,23.688228181999875,23.688228181999875,23.688228181999875,23.688228181999875,24.69494906699947,None,None,a,-9891.477120946,None,,,,,,,,001,001,2024-08-21_11h24.35.966,sad_memory_demo,2024.1.3,None,2024-08-21 11h24.43.950351 -0400,
,,,,,were about others,4,,,,,0,3,3,3,25.05001919999995,,,,,,,,,25.943601856000896,25.95163012299963,26.238417320000735,,,,,,,,,,,,,,,,,3.0,,,,26.287316449999707,24.997429762999673,25.05001919999995,25.05001919999995,25.05001919999995,25.05001919999995,25.943275669000286,None,None,s,-9891.593453026,None,,,,,,,,001,001,2024-08-21_11h24.35.966,sad_memory_demo,2024.1.3,None,2024-08-21 11h24.43.950351 -0400,
,,,,,were positive,5,,,,,0,4,4,4,26.287316449999707,,,,,,,,,27.06323706600051,27.071471557999757,27.363889628000834,,,,,,,,,,,,,,,,,7.0,,,,,26.238586040999508,26.287316449999707,26.287316449999707,26.287316449999707,26.287316449999707,27.06292147500062,None,None,a,-9891.69682792,None,,,,,,,,001,001,2024-08-21_11h24.35.966,sad_memory_demo,2024.1.3,None,2024-08-21 11h24.43.950351 -0400,
,,,,,were negative,6,,,,,0,5,5,5,27.406564646000334,,,,,,,,,28.393426357999488,28.40138360399942,28.695793116999994,,,,,,,,,,,,,,,,,8.0,,,,,27.364093440000943,27.406564646000334,27.406564646000334,27.406564646000334,27.406564646000334,28.393103078000422,None,None,a,-9891.497543227999,None,,,,,,,,001,001,2024-08-21_11h24.35.966,sad_memory_demo,2024.1.3,None,2024-08-21 11h24.43.950351 -0400,
,,,,,were in the form of images,7,,,,,0,6,6,6,28.745542898001077,,,,,,,,,29.74379632000091,29.751760695000485,30.039828209000916,,,,,,,,,,,,,,,,,3.0,,,,30.08997380099936,28.696099249000326,28.745542898001077,28.745542898001077,28.745542898001077,28.745542898001077,29.74347751499954,None,None,s,-9891.481799948999,None,,,,,,,,001,001,2024-08-21_11h24.35.966,sad_memory_demo,2024.1.3,None,2024-08-21 11h24.43.950351 -0400,
,,,,,were in the form of words,8,,,,,0,7,7,7,30.08997380099936,,,,,,,,,30.844005928000115,30.852001367000412,31.145766527000887,,,,,,,,,,,,,,,,,7.0,,,,,30.040089680000165,30.08997380099936,30.08997380099936,30.08997380099936,30.08997380099936,30.843677539000055,None,None,a,-9891.740942025,None,,,,,,,,001,001,2024-08-21_11h24.35.966,sad_memory_demo,2024.1.3,None,2024-08-21 11h24.43.950351 -0400,
,,,,,made me feel happy,9,,,,,0,8,8,8,31.19648807700105,,,,,,,,,31.980987234001077,31.989031932000216,32.27604685900042,,,,,,,,,,,,,,,,,8.0,,,,32.32586724000066,31.145982664000258,31.19648807700105,31.19648807700105,31.19648807700105,31.19648807700105,31.980666589000975,None,None,a,-9891.711521013,None,,,,,,,,001,001,2024-08-21_11h24.35.966,sad_memory_demo,2024.1.3,None,2024-08-21 11h24.43.950351 -0400,
,,,,,made me feel sad,10,,,,,0,9,9,9,32.32586724000066,,,,,,,,,33.2454772229994,33.25339371799964,33.54756181999983,,,,,,,,,,,,,,,,,8.0,,,,,32.27621667300082,32.32586724000066,32.32586724000066,32.32586724000066,32.32586724000066,33.24514079000073,None,None,a,-9891.571893791,None,,,,,,,,001,001,2024-08-21_11h24.35.966,sad_memory_demo,2024.1.3,None,2024-08-21 11h24.43.950351 -0400,
,,,,,,,,,,,,,,,,,,,,,,,,,,,,,,,,,,,,,,,,,,,,,,,,,,,,,,,,,,,33.54767123599959,33.56479981600023,33.56479981600023,34.73081520000051,s,-9891.299626982,None,001,001,2024-08-21_11h24.35.966,sad_memory_demo,2024.1.3,None,2024-08-21 11h24.43.950351 -0400,
